File: B0043_lstm_ready.csv
AvgVoltage_x,MinVoltage,AvgCurrent_x,MaxTemp_x,DischargeCapacity_Ah,Cycle,RUL,AvgVoltage_y,AvgCurrent_y,MaxTemp_y,CycleCapacity_Ah,Avg_Battery_Impedance,Max_Battery_Impedance,Avg_Rectified_Impedance,Avg_Current_Ratio,Avg_Sense_Current,Avg_Battery_Current
3.47591,2.42131,-1.8551,36.8424,1.73243,1,41,4.2113,0.104881,23.5713,1.4984e-10,0.229481,0.357591,0.0876054,2.89389,857.682,304.728
3.48974,2.46128,-1.86889,36.2511,1.70905,2,40,4.14315,0.61444,33.6467,1.72026e-09,0.221546,0.355915,0.0810406,2.81753,852.613,310.645
3.49012,2.39976,-1.88406,36.1286,1.70039,3,39,4.14543,0.608096,33.3758,1.70244e-09,0.221566,0.35385,0.080945,2.81305,852.469,310.959
3.49402,2.39974,-1.89409,36.3525,1.69228,4,38,4.14662,0.604844,33.6301,1.69639e-09,0.222924,0.353812,0.0821467,2.82428,853.624,309.97
3.50055,2.37864,-1.91037,36.7526,1.68855,5,37,4.14703,0.604396,34.096,1.6935e-09,0.217649,0.353222,0.0779806,2.78065,849.844,313.871
3.57934,3.35792,-1.974,34.2633,1.4567,6,36,4.15511,0.600808,27.6373,1.69577e-09,0.224069,0.354676,0.0833384,2.8348,854.126,308.785
3.50747,2.41629,-1.9268,36.8314,1.67505,7,35,4.16405,0.532108,33.798,1.46998e-09,0.216752,0.351812,0.0772181,2.77173,848.924,314.569
3.50547,2.37918,-1.93248,36.5474,1.67007,8,34,4.14875,0.599233,35.4677,1.69396e-09,0.221037,0.351562,0.0809008,2.80898,852.39,311.176
3.50515,2.46665,-1.92551,36.2237,1.65638,9,33,4.14971,0.587166,35.3386,1.665e-09,0.215729,0.350182,0.0763043,2.76111,848.074,315.514
3.50244,2.42931,-1.925,36.1696,1.64959,10,32,4.15127,0.58269,34.8331,1.65085e-09,0.217537,0.349542,0.077891,2.77683,849.458,313.963
3.50073,2.40241,-1.92444,36.1961,1.64761,11,31,4.16022,0.584793,26.7838,1.6589e-09,0.21518,0.350584,0.0757564,2.7557,847.644,316.095
3.50195,2.40616,-1.92393,36.2176,1.64028,12,30,4.15299,0.579586,34.7057,1.65019e-09,0.222991,0.355958,0.0818776,2.82566,853.282,309.883
3.50025,2.41579,-1.9169,36.0905,1.63249,13,29,4.15346,0.573309,34.7995,1.63445e-09,0.215223,0.350804,0.0757578,2.75604,847.617,316.046
3.50077,2.40021,-1.92273,36.149,1.62823,14,28,4.15422,0.57414,34.5628,1.63367e-09,0.222535,0.355579,0.0817574,2.82157,853.168,310.202
3.50049,2.43747,-1.91573,36.158,1.62041,15,27,4.15493,0.570849,34.7172,1.6283e-09,0.219323,0.35282,0.0793535,2.79345,851.015,312.674
3.49617,2.38659,-1.90873,36.1696,1.61808,16,26,4.16363,0.567724,26.608,1.61992e-09,0.222506,0.354254,0.0819422,2.82199,853.365,310.124
3.49932,2.44892,-1.90787,36.1318,1.60992,17,25,4.15634,0.568472,34.4781,1.62484e-09,0.220782,0.356281,0.0801362,2.8073,851.832,311.668
3.50081,2.49336,-1.90746,36.13,1.60272,18,24,4.15736,0.569016,34.3861,1.62878e-09,0.225796,0.357788,0.0843682,2.85181,855.849,307.727
3.49755,2.47399,-1.90001,36.1154,1.59495,19,23,4.15828,0.557736,34.3154,1.60075e-09,0.244322,0.392296,0.108106,3.12018,875.208,287.553
3.49697,2.45686,-1.90413,36.2603,1.5908,20,22,4.1586,0.562777,34.2608,1.61247e-09,0.243342,0.391259,0.107098,3.11348,874.528,288.34
3.49314,2.38978,-1.89295,36.7341,1.61002,21,21,4.16703,0.557845,26.6522,1.59877e-09,0.24896,0.403745,0.111028,3.16651,878.018,284.464
3.50027,2.38348,-1.89915,37.3544,1.60487,22,20,4.16411,0.561962,27.4046,1.61273e-09,0.242569,0.392046,0.106074,3.10517,873.551,288.736
3.50266,2.42756,-1.89177,37.4094,1.59597,23,19,4.1568,0.559995,35.4973,1.60551e-09,0.241216,0.39305,0.105123,3.0971,873.148,289.382
3.50187,2.45838,-1.89078,37.2637,1.58564,24,18,4.15799,0.556184,35.356,1.5969e-09,0.241766,0.390501,0.105397,3.09585,873.312,289.23
3.49676,2.39479,-1.89685,37.27,1.57967,25,17,4.15947,0.549438,35.22,1.58454e-09,0.242087,0.38669,0.106435,3.09984,873.751,289.052
3.49385,2.36553,-1.89607,37.3761,1.5737,26,16,4.15995,0.546055,35.3439,1.57358e-09,0.238696,0.391818,0.103677,3.07292,871.446,291.072
3.49809,2.47427,-1.88182,37.5757,1.56922,27,15,4.16734,0.550102,27.7262,1.57209e-09,0.256485,0.41493,0.116196,3.22876,882.085,280.093
3.49982,2.47206,-1.88125,37.8094,1.56505,28,14,4.16088,0.5427,35.3969,1.56542e-09,0.253971,0.411176,0.114654,3.21093,881.109,281.363
3.49874,2.48388,-1.88058,37.6984,1.55801,29,13,4.1612,0.544727,35.614,1.57167e-09,0.257682,0.41706,0.117097,3.23561,882.446,279.681
3.49687,2.42918,-1.89408,37.672,1.55819,30,12,4.16274,0.550444,35.476,1.58906e-09,0.253878,0.409374,0.114627,3.20717,880.809,281.524
3.48954,2.39753,-1.87904,37.5846,1.54664,31,11,4.16268,0.541122,35.7394,1.55914e-09,0.255461,0.414955,0.115787,3.22275,881.744,280.436
3.48717,2.43519,-1.87108,37.5716,1.54058,32,10,4.17095,0.533286,27.6739,1.53985e-09,0.250957,0.406552,0.112159,3.17922,878.992,283.351
3.4906,2.46493,-1.8702,37.8381,1.53555,33,9,4.16437,0.530562,35.0896,1.53468e-09,0.251576,0.407682,0.113438,3.18982,879.654,282.589
3.48761,2.44571,-1.86956,37.7612,1.52828,34,8,4.16455,0.528376,35.3944,1.52986e-09,0.250543,0.40421,0.11217,3.17561,878.58,283.466
3.48429,2.48078,-1.86814,37.4342,1.51587,35,7,4.16526,0.525067,35.2331,1.52195e-09,0.254053,0.412133,0.114659,3.20868,880.868,281.462
3.48111,2.48263,-1.86727,37.319,1.50842,36,6,4.16686,0.522356,34.879,1.51225e-09,0.257943,0.418509,0.117111,3.24197,882.736,279.187
3.4751,2.39747,-1.85949,37.586,1.50871,37,5,4.17593,0.504624,27.1868,1.50108e-09,0.25193,0.409761,0.113188,3.1881,879.634,282.741
3.4772,2.37017,-1.86627,38.0672,1.50851,38,4,4.16727,0.520157,34.8457,1.50445e-09,0.249238,0.402891,0.111075,3.16329,878.161,284.509
3.48217,2.467,-1.85805,38.0343,1.50145,39,3,4.16707,0.519072,35.4757,1.50328e-09,0.250836,0.402348,0.112342,3.17608,878.823,283.497
3.48034,2.47679,-1.85709,37.885,1.49342,40,2,4.16789,0.514152,35.3836,1.49565e-09,0.256209,0.437646,0.111608,3.19579,879.389,283.098
3.47148,2.40149,-1.86344,37.7217,1.48569,41,1,4.16877,0.512377,35.2426,1.48729e-09,0.254118,0.406736,0.114472,3.20344,880.851,281.487
4.05716,2.45762,-0.265382,10.1697,0.0774434,42,0,4.17687,0.510339,27.3093,1.47985e-09,0.256074,0.431198,0.113319,3.20607,880.279,282.491
4.04983,2.42764,-0.277907,10.0731,0.0777475,43,0,4.20296,0.0219139,6.1275,6.67109e-11,0.253011,0.407694,0.11363,3.19409,880.2,282.178
4.04907,2.44278,-0.284507,9.36371,0.0779284,44,0,4.20334,0.0241701,6.86636,7.319e-11,0.262237,0.443681,0.116031,3.24547,882.651,279.914
4.04455,2.36044,-0.288182,9.49838,0.0783391,45,0,4.20312,0.0237482,6.53074,7.19207e-11,0.254576,0.404984,0.115165,3.2079,881.312,281.187
4.03583,2.38193,-0.297382,9.50299,0.0872976,46,0,4.20502,0.0312372,6.45725,7.47273e-11,0.260597,0.439423,0.11543,3.23932,882.321,280.337
4.04459,2.48467,-0.297349,8.97954,0.0871984,47,0,4.20393,0.0280845,6.22945,8.5708e-11,0.256627,0.410156,0.117297,3.23278,882.622,279.698
4.04142,2.44491,-0.303472,10.239,0.0875887,48,0,4.20395,0.0267772,6.64475,8.15405e-11,0.26232,0.437812,0.116888,3.2493,883.005,279.495
4.03824,2.3976,-0.30667,10.1208,0.0881131,49,0,4.20409,0.0268611,6.4095,8.16832e-11,0.261495,0.421282,0.119499,3.26601,884.72,277.601
3.9848,2.39446,-0.460293,10.1691,0.0878461,50,0,4.20457,0.0272407,6.33247,8.25156e-11,0.261495,0.421282,0.119499,3.26601,884.72,277.601
4.06194,2.48475,-0.263541,7.98196,0.0761286,51,0,4.2044,0.0305395,6.29272,8.08937e-11,0.261495,0.421282,0.119499,3.26601,884.72,277.601
4.03902,2.43965,-0.309821,9.5068,0.0888815,52,0,4.20431,0.0233406,6.17872,7.13992e-11,0.261495,0.421282,0.119499,3.26601,884.72,277.601
4.03613,2.40907,-0.313561,8.94722,0.0891283,53,0,4.20336,0.0265309,6.6874,8.10655e-11,0.261495,0.421282,0.119499,3.26601,884.72,277.601
4.05739,2.486,-0.275134,9.04857,0.0766494,54,0,4.20339,0.0271818,6.65912,8.28361e-11,0.261495,0.421282,0.119499,3.26601,884.72,277.601
4.05732,2.43476,-0.271668,8.21483,0.0770743,55,0,4.20387,0.0239918,6.25163,7.2692e-11,0.261495,0.421282,0.119499,3.26601,884.72,277.601
4.03363,2.40652,-0.320196,9.47297,0.0897994,56,0,4.20332,0.0233744,6.88688,7.09557e-11,0.261495,0.421282,0.119499,3.26601,884.72,277.601
4.05179,2.45171,-0.284766,9.44725,0.080596,57,0,4.20414,0.0272946,6.20754,8.32646e-11,0.261495,0.421282,0.119499,3.26601,884.72,277.601
4.031,2.38171,-0.323881,10.6247,0.0902593,58,0,4.20297,0.0244104,6.3227,7.38721e-11,0.261495,0.421282,0.119499,3.26601,884.72,277.601
4.05502,2.47424,-0.281778,9.28997,0.0781355,59,0,4.20358,0.0279534,6.5329,8.45631e-11,0.261495,0.421282,0.119499,3.26601,884.72,277.601
4.03011,2.37641,-0.327646,10.405,0.0911421,60,0,4.20402,0.0243653,6.25106,7.39768e-11,0.261495,0.421282,0.119499,3.26601,884.72,277.601
4.05242,2.44421,-0.284644,9.26999,0.0787346,61,0,4.20342,0.0273516,6.58434,8.33953e-11,0.261495,0.421282,0.119499,3.26601,884.72,277.601
4.02713,2.36252,-0.331365,10.6964,0.0914507,62,0,4.20323,0.0238178,6.29415,7.30851e-11,0.261495,0.421282,0.119499,3.26601,884.72,277.601
4.04812,2.36565,-0.288367,8.84115,0.0791022,63,0,4.20352,0.0281933,6.62634,8.57222e-11,0.261495,0.421282,0.119499,3.26601,884.72,277.601
3.99428,2.46493,-0.462569,9.60178,0.0787766,64,0,4.20353,0.0244686,6.30222,7.41088e-11,0.261495,0.421282,0.119499,3.26601,884.72,277.601
3.98921,2.47801,-0.481064,9.77587,0.0789664,65,0,4.20322,0.024129,6.32859,7.33355e-11,0.261495,0.421282,0.119499,3.26601,884.72,277.601
3.98565,2.46735,-0.490575,9.77507,0.0790923,66,0,4.20366,0.0251914,6.37497,7.44741e-11,0.261495,0.421282,0.119499,3.26601,884.72,277.601
4.05298,2.45399,-0.275274,7.95308,0.0800411,67,0,4.20353,0.0253558,6.22489,7.26323e-11,0.261495,0.421282,0.119499,3.26601,884.72,277.601
4.05172,2.37943,-0.278381,8.70378,0.0802693,68,0,4.20344,0.025667,6.27711,7.77191e-11,0.261495,0.421282,0.119499,3.26601,884.72,277.601
4.02676,2.34527,-0.331536,10.8619,0.09354,69,0,4.2029,0.0242799,6.32442,7.34277e-11,0.261495,0.421282,0.119499,3.26601,884.72,277.601
3.99422,2.47457,-0.462629,9.62881,0.0799162,70,0,4.20291,0.0280486,6.59825,8.54533e-11,0.261495,0.421282,0.119499,3.26601,884.72,277.601
4.04997,2.34524,-0.2816,8.74013,0.0810822,71,0,4.20332,0.0250011,6.34095,7.62615e-11,0.261495,0.421282,0.119499,3.26601,884.72,277.601
4.05119,2.4838,-0.291597,9.89083,0.0811066,72,0,4.20257,0.0242636,6.90593,7.35826e-11,0.261495,0.421282,0.119499,3.26601,884.72,277.601
4.05026,2.45187,-0.291218,8.1236,0.0811654,73,0,4.20336,0.0251825,6.17572,7.64007e-11,0.261495,0.421282,0.119499,3.26601,884.72,277.601
4.04987,2.48169,-0.294891,9.5404,0.081305,74,0,4.2025,0.0248321,6.67731,7.50019e-11,0.261495,0.421282,0.119499,3.26601,884.72,277.601
4.04947,2.46934,-0.295218,8.68982,0.0817336,75,0,4.20268,0.0251847,6.58605,7.61698e-11,0.261495,0.421282,0.119499,3.26601,884.72,277.601
4.0437,2.33595,-0.298997,8.64812,0.0819333,76,0,4.20322,0.0254468,6.72092,7.67803e-11,0.261495,0.421282,0.119499,3.26601,884.72,277.601
4.04662,2.45599,-0.302544,8.76675,0.0821395,77,0,4.20293,0.0249633,6.92013,7.53451e-11,0.261495,0.421282,0.119499,3.26601,884.72,277.601
4.04783,2.44653,-0.29904,8.6973,0.0825833,78,0,4.20376,0.0255658,6.2236,7.7398e-11,0.261495,0.421282,0.119499,3.26601,884.72,277.601
4.04502,2.44011,-0.306248,10.0977,0.0825715,79,0,4.20295,0.0253123,6.67732,7.65195e-11,0.261495,0.421282,0.119499,3.26601,884.72,277.601
4.02424,2.42638,-0.365682,10.0819,0.0825938,80,0,4.2027,0.0252881,6.55867,7.69164e-11,0.261495,0.421282,0.119499,3.26601,884.72,277.601
3.98007,2.38187,-0.490534,9.86739,0.0825963,81,0,4.20322,0.0258437,6.56102,7.84437e-11,0.261495,0.421282,0.119499,3.26601,884.72,277.601
3.39679,2.25946,-2.3863,8.66819,0.0821559,82,0,4.20301,0.0254637,6.36749,7.7259e-11,0.261495,0.421282,0.119499,3.26601,884.72,277.601
3.43665,2.36427,-2.38698,8.23023,0.0824197,83,0,4.20901,0.0575307,6.24312,7.80037e-11,0.261495,0.421282,0.119499,3.26601,884.72,277.601
3.32447,2.22008,-2.64985,8.3474,0.0823182,84,0,4.20882,0.070629,7.89358,8.01845e-11,0.261495,0.421282,0.119499,3.26601,884.72,277.601
3.42232,2.30897,-2.38705,9.56697,0.0821646,85,0,4.21222,0.0955413,9.07239,8.02827e-11,0.261495,0.421282,0.119499,3.26601,884.72,277.601
3.51713,2.46433,-2.20987,7.15556,0.0686217,86,0,4.21222,0.0894788,9.66679,8.12432e-11,0.261495,0.421282,0.119499,3.26601,884.72,277.601
3.33085,2.22717,-2.65155,8.8491,0.0828442,87,0,4.21222,0.0821808,7.47045,6.78594e-11,0.261495,0.421282,0.119499,3.26601,884.72,277.601
3.46939,2.48771,-0.990831,11.0592,1.54789,88,0,4.21261,0.076574,6.13655,7.91434e-11,0.261495,0.421282,0.119499,3.26601,884.72,277.601
3.48966,2.47005,-0.991784,10.4648,1.57547,89,0,4.19419,0.533332,8.79593,1.57424e-09,0.261495,0.421282,0.119499,3.26601,884.72,277.601
3.48835,2.49179,-0.991727,11.1178,1.56567,90,0,4.18822,0.52978,10.1775,1.5654e-09,0.261495,0.421282,0.119499,3.26601,884.72,277.601
3.48285,2.46814,-0.99157,11.4659,1.55607,91,0,4.18871,0.526356,10.7662,1.55417e-09,0.261495,0.421282,0.119499,3.26601,884.72,277.601
3.47977,2.48403,-0.989275,10.6724,1.53821,92,0,4.18914,0.523067,10.1058,1.54483e-09,0.261495,0.421282,0.119499,3.26601,884.72,277.601
3.47236,2.4821,-0.987045,11.5532,1.53049,93,0,4.19042,0.517249,10.1977,1.52932e-09,0.261495,0.421282,0.119499,3.26601,884.72,277.601
3.46559,2.49954,-0.982521,10.6782,1.51274,94,0,4.19735,0.512496,8.59845,1.51595e-09,0.261495,0.421282,0.119499,3.26601,884.72,277.601
3.46217,2.46244,-0.980082,10.6789,1.50478,95,0,4.19253,0.508487,9.64261,1.50672e-09,0.261495,0.421282,0.119499,3.26601,884.72,277.601
3.45698,2.4931,-0.977485,11.2495,1.49343,96,0,4.19317,0.503614,9.45316,1.49403e-09,0.261495,0.421282,0.119499,3.26601,884.72,277.601
3.44922,2.46279,-0.975332,11.6375,1.48338,97,0,4.19396,0.500563,8.7446,1.48258e-09,0.261495,0.421282,0.119499,3.26601,884.72,277.601
3.44758,2.49752,-0.970425,11.7975,1.46933,98,0,4.19456,0.497205,10.6227,1.47337e-09,0.261495,0.421282,0.119499,3.26601,884.72,277.601
3.43588,2.473,-0.970257,11.7173,1.45961,99,0,4.19985,0.490273,8.52339,1.45584e-09,0.261495,0.421282,0.119499,3.26601,884.72,277.601
3.43937,2.47988,-0.965247,11.4001,1.44684,100,0,4.19582,0.4906,10.4724,1.45436e-09,0.261495,0.421282,0.119499,3.26601,884.72,277.601
3.43716,2.48331,-0.96242,11.2741,1.432,101,0,4.19639,0.48439,9.99063,1.43742e-09,0.261495,0.421282,0.119499,3.26601,884.72,277.601
3.43272,2.47227,-0.95958,10.9392,1.41712,102,0,4.19764,0.479323,9.81314,1.42305e-09,0.261495,0.421282,0.119499,3.26601,884.72,277.601
3.43128,2.49952,-0.956961,11.4693,1.40783,103,0,4.19833,0.475335,9.52055,1.40971e-09,0.261495,0.421282,0.119499,3.26601,884.72,277.601
3.42377,2.49287,-0.952213,11.0768,1.39627,104,0,4.20255,0.468328,8.48039,1.39565e-09,0.261495,0.421282,0.119499,3.26601,884.72,277.601
3.42578,2.46672,-0.954133,11.2616,1.389,105,0,4.19844,0.467389,9.3297,1.39116e-09,0.261495,0.421282,0.119499,3.26601,884.72,277.601
3.41992,2.47078,-0.951277,11.577,1.37859,106,0,4.19917,0.463967,8.941,1.38006e-09,0.261495,0.421282,0.119499,3.26601,884.72,277.601
3.41955,2.48485,-0.943213,11.164,1.35948,107,0,4.19974,0.460508,8.6853,1.36889e-09,0.261495,0.421282,0.119499,3.26601,884.72,277.601
3.4122,2.46613,-0.947787,11.989,1.35709,108,0,4.2009,0.454751,9.18068,1.35281e-09,0.261495,0.421282,0.119499,3.26601,884.72,277.601
3.40736,2.47258,-0.940332,11.7352,1.3458,109,0,4.20453,0.450057,8.55449,1.34301e-09,0.261495,0.421282,0.119499,3.26601,884.72,277.601
3.41287,2.49196,-0.937288,11.2991,1.3319,110,0,4.20112,0.451058,9.46904,1.34174e-09,0.261495,0.421282,0.119499,3.26601,884.72,277.601
3.40862,2.48552,-0.934001,11.3769,1.31984,111,0,4.20156,0.445213,9.05766,1.32382e-09,0.261495,0.421282,0.119499,3.26601,884.72,277.601
3.4058,2.4998,-0.930823,11.4888,1.30841,112,0,4.2022,0.439953,9.04007,1.31227e-09,0.261495,0.421282,0.119499,3.26601,884.72,277.601