File: battery_final_dataset_clean.csv
File_x,AvgVoltage_x,MinVoltage,AvgCurrent_x,MaxTemp_x,DischargeCapacity_Ah,Cycle,RUL,File_y,AvgVoltage_y,AvgCurrent_y,MaxTemp_y,CycleCapacity_Ah,File,Avg_Battery_Impedance,Max_Battery_Impedance,Avg_Rectified_Impedance,Avg_Current_Ratio,Avg_Sense_Current,Avg_Battery_Current,SOH
00001.csv,3.47527,2.47061,-0.952767,12.3768,1.70599,1,17,00003.csv,4.19352,0.520792,8.79362,1.54061e-09,00002.csv,0.213929,0.384859,0.0841214,2.87031,856.063,308.673,1.0
00005.csv,3.47656,2.47766,-0.983889,11.3149,1.54859,2,16,00006.csv,4.1875,0.518686,10.1456,1.53685e-09,00004.csv,0.217082,0.352299,0.0844271,2.84519,855.438,309.032,0.907739
00007.csv,3.47077,2.47071,-0.983889,11.6245,1.53237,3,15,00008.csv,4.18966,0.513528,9.37129,1.52048e-09,00014.csv,0.222013,0.395029,0.0893689,2.9309,860.851,303.513,0.89823
00009.csv,3.46755,2.46546,-0.978947,11.0929,1.51169,4,14,00010.csv,4.19192,0.507374,9.59939,1.50268e-09,00016.csv,0.221105,0.361228,0.0886787,2.89564,859.097,304.801,0.886109
00011.csv,3.46284,2.46577,-0.976262,11.021,1.49531,5,13,00012.csv,4.19311,0.501276,9.97744,1.48582e-09,00018.csv,0.219014,0.391481,0.0873054,2.90716,859.136,305.499,0.876505
00013.csv,3.45918,2.47005,-0.971168,11.0591,1.4771,6,12,00015.csv,4.19948,0.494577,8.87807,1.46634e-09,00020.csv,0.220793,0.358002,0.0865734,2.87557,857.423,306.389,0.865833
00017.csv,3.44087,2.48413,-0.970933,11.877,1.47412,7,11,00019.csv,4.1963,0.494706,8.54999,1.47238e-09,00030.csv,0.217848,0.374945,0.0879253,2.90169,859.021,305.219,0.864088
00021.csv,3.4481,2.48303,-0.961055,11.5593,1.4632,8,10,00022.csv,4.19443,0.491807,9.91499,1.45761e-09,00032.csv,0.221466,0.359534,0.088725,2.89462,859.145,304.839,0.857685
00023.csv,3.44967,2.4983,-0.958292,11.3474,1.44385,9,9,00024.csv,4.19519,0.484474,8.8773,1.43589e-09,00034.csv,0.22208,0.394381,0.0904309,2.94428,861.91,302.246,0.846344
00025.csv,3.44491,2.49851,-0.955372,11.6933,1.42838,10,8,00026.csv,4.19664,0.479232,9.79233,1.42042e-09,00036.csv,0.226511,0.37385,0.0937899,2.95596,863.736,299.998,0.837274
00027.csv,3.44183,2.49194,-0.952784,11.5574,1.41319,11,7,00028.csv,4.19846,0.473344,8.7934,1.40572e-09,00046.csv,0.225867,0.394228,0.0935337,2.97381,864.212,299.646,0.828368
00029.csv,3.43447,2.46831,-0.949815,11.6674,1.4013,12,6,00031.csv,4.20124,0.466639,8.48908,1.38809e-09,00048.csv,0.228355,0.369576,0.0949639,2.96527,864.365,299.348,0.821402
00033.csv,3.43012,2.4792,-0.962375,11.311,1.43848,13,5,00035.csv,4.20095,0.487987,8.87507,1.44926e-09,00058.csv,0.232248,0.396928,0.098152,3.02492,867.842,295.655,0.843194
00037.csv,3.44208,2.49337,-0.952878,11.1756,1.43444,14,4,00038.csv,4.19785,0.480349,9.01132,1.42734e-09,00060.csv,0.231508,0.373482,0.0979077,2.99895,866.888,296.521,0.840828
00039.csv,3.44247,2.49157,-0.949764,11.1502,1.41547,15,3,00040.csv,4.19868,0.472575,9.11784,1.40525e-09,00070.csv,0.239094,0.407911,0.102284,3.07634,871.446,292.155,0.829705
00041.csv,3.43386,2.47186,-0.951711,11.8113,1.3992,16,2,00042.csv,4.19913,0.468029,9.00887,1.39036e-09,00072.csv,0.236248,0.385168,0.102048,3.05134,870.542,292.927,0.820173
00043.csv,3.43275,2.48891,-0.94343,11.6998,1.37851,17,1,00044.csv,4.19949,0.460581,8.77549,1.36993e-09,00082.csv,0.244621,0.413963,0.105658,3.11019,873.834,289.539,0.808043
00045.csv,3.42739,2.47285,-0.940048,11.234,1.36177,18,0,00047.csv,4.20491,0.453576,8.52793,1.34914e-09,00084.csv,0.24089,0.390619,0.105395,3.09081,873.642,290.088,0.798228
00049.csv,3.41847,2.48222,-0.937155,11.7296,1.34788,19,0,00050.csv,4.20069,0.452677,9.25659,1.34512e-09,00086.csv,0.23559,0.40966,0.0989269,3.04127,868.703,294.676,0.790086
00051.csv,3.65072,3.45263,-0.983965,8.56528,0.656546,20,0,00052.csv,4.2079,0.236057,8.22951,7.01364e-10,00088.csv,0.237877,0.385533,0.102822,3.06599,871.372,291.833,0.384848
00053.csv,3.41568,2.48126,-0.923482,12.1862,1.37223,21,0,00054.csv,4.20168,0.444861,8.68212,1.32302e-09,00098.csv,0.237845,0.405621,0.10193,3.07162,871.124,292.334,0.804361
00055.csv,3.41894,2.48754,-0.930472,11.1474,1.32167,22,0,00056.csv,4.20112,0.441204,8.80743,1.31363e-09,00100.csv,0.242908,0.396849,0.106592,3.11104,874.711,288.666,0.774727
00057.csv,3.41478,2.49076,-0.932282,11.681,1.31085,23,0,00059.csv,4.20598,0.434991,8.67279,1.29884e-09,00110.csv,0.247142,0.418945,0.107305,3.13222,875.254,288.207,0.76838
00061.csv,3.40959,2.49316,-0.92679,11.2968,1.29697,24,0,00062.csv,4.20274,0.434909,8.74981,1.29587e-09,00112.csv,0.246156,0.400662,0.109397,3.14321,876.628,286.394,0.760244
00063.csv,3.40765,2.47924,-0.93165,11.8824,1.29526,25,0,00064.csv,4.20191,0.432988,8.66229,1.28755e-09,00122.csv,0.246573,0.411901,0.108436,3.13808,876.006,287.656,0.759245
00065.csv,3.4072,2.49153,-0.925567,11.7917,1.27854,26,0,00066.csv,4.20258,0.426915,9.01973,1.2719e-09,00124.csv,0.246468,0.397515,0.109696,3.1414,876.55,286.462,0.749444
00067.csv,3.40285,2.49573,-0.927363,11.7266,1.26709,27,0,00068.csv,4.20322,0.422867,9.11602,1.26017e-09,00134.csv,0.249287,0.418347,0.108767,3.14432,876.412,287.294,0.742734
00069.csv,3.39874,2.49797,-0.926783,12.4646,1.26145,28,0,00071.csv,4.20699,0.418442,8.57694,1.24985e-09,00136.csv,0.247385,0.40272,0.110359,3.14742,877.046,286.115,0.739425
00073.csv,3.39451,2.49511,-0.923682,11.8635,1.25138,29,0,00074.csv,4.20417,0.420224,9.12595,1.25159e-09,00138.csv,0.244547,0.416505,0.10577,3.12064,874.478,288.704,0.733522
00075.csv,3.39193,2.4852,-0.928909,12.4608,1.25086,30,0,00076.csv,4.20467,0.417533,8.91352,1.24341e-09,00140.csv,0.245169,0.400995,0.108172,3.12811,875.803,287.311,0.73322
00077.csv,3.39129,2.48733,-0.928228,12.2136,1.24094,31,0,00078.csv,4.20437,0.414418,8.99267,1.23416e-09,00150.csv,0.252381,0.424463,0.11103,3.17759,878.579,284.823,0.727401
00079.csv,3.39327,2.48862,-0.924439,11.5348,1.2256,32,0,00080.csv,4.2045,0.409594,8.97647,1.22047e-09,00152.csv,0.249829,0.406287,0.111828,3.17249,878.601,284.141,0.71841
00081.csv,3.38386,2.47697,-0.927054,12.4298,1.22391,33,0,00083.csv,4.20745,0.405322,8.40368,1.21185e-09,00154.csv,0.250069,0.425826,0.108798,3.15489,876.93,286.388,0.717419
00085.csv,3.38665,2.47901,-0.946087,12.4283,1.29523,34,0,00087.csv,4.20604,0.439298,8.78804,1.31096e-09,00156.csv,0.250291,0.403416,0.112238,3.17359,878.379,283.864,0.759229
00089.csv,3.4021,2.4796,-0.935687,12.4874,1.30256,35,0,00090.csv,4.20314,0.435659,8.99627,1.29678e-09,00166.csv,0.254295,0.413581,0.114259,3.20568,880.711,282.019,0.763522
00091.csv,3.40463,2.46837,-0.940147,11.3437,1.28049,36,0,00092.csv,4.20317,0.42189,8.96877,1.27147e-09,00168.csv,0.251887,0.411273,0.113336,3.19045,879.903,282.991,0.750587
00093.csv,3.39774,2.49702,-0.93957,12.6417,1.26732,37,0,00094.csv,4.20363,0.423466,9.06846,1.26054e-09,00170.csv,0.246843,0.421765,0.106754,3.13167,875.325,287.979,0.742866
00095.csv,3.39454,2.47517,-0.935836,11.9699,1.25081,38,0,00096.csv,4.20399,0.417009,9.60039,1.24418e-09,00172.csv,0.250422,0.409688,0.112216,3.18318,879.537,283.67,0.733191
00097.csv,3.39714,2.49981,-0.934724,11.4384,1.23396,39,0,00099.csv,4.20744,0.40955,8.57634,1.22339e-09,00182.csv,0.251783,0.427481,0.109785,3.16639,877.746,285.51,0.723309
00101.csv,3.38456,2.49455,-0.931705,12.1444,1.22837,40,0,00102.csv,4.2047,0.411744,9.68429,1.22727e-09,00184.csv,0.252605,0.404827,0.114167,3.19682,880.534,282.563,0.720032
00103.csv,3.38208,2.47734,-0.943123,12.6722,1.22746,41,0,00104.csv,4.20437,0.408717,9.0508,1.21911e-09,00184.csv,0.252605,0.404827,0.114167,3.19682,880.534,282.563,0.7195
00105.csv,3.38081,2.47833,-0.936452,11.9848,1.20934,42,0,00106.csv,4.20428,0.403691,9.67264,1.20312e-09,00184.csv,0.252605,0.404827,0.114167,3.19682,880.534,282.563,0.70888
00107.csv,3.38203,2.49483,-0.933014,12.102,1.19988,43,0,00108.csv,4.20479,0.40038,9.67292,1.19433e-09,00184.csv,0.252605,0.404827,0.114167,3.19682,880.534,282.563,0.703335
00109.csv,3.37642,2.49568,-0.935446,12.397,1.19395,44,0,00111.csv,4.20776,0.395722,8.27551,1.18287e-09,00184.csv,0.252605,0.404827,0.114167,3.19682,880.534,282.563,0.699861
00113.csv,3.37296,2.47293,-0.935002,11.4551,1.18725,45,0,00114.csv,4.20466,0.394494,9.24423,1.18843e-09,00184.csv,0.252605,0.404827,0.114167,3.19682,880.534,282.563,0.695932
00115.csv,3.37864,2.49458,-0.934562,11.3935,1.17809,46,0,00116.csv,4.20412,0.393814,8.98886,1.17322e-09,00184.csv,0.252605,0.404827,0.114167,3.19682,880.534,282.563,0.690565
00117.csv,3.37017,2.49255,-0.940582,12.6353,1.18043,47,0,00118.csv,4.20473,0.393914,8.7644,1.17472e-09,00184.csv,0.252605,0.404827,0.114167,3.19682,880.534,282.563,0.691931
00119.csv,3.36792,2.47521,-0.940166,12.4544,1.17476,48,0,00120.csv,4.20457,0.391163,10.2489,1.16748e-09,00184.csv,0.252605,0.404827,0.114167,3.19682,880.534,282.563,0.688608
00121.csv,3.37311,2.49741,-0.938555,12.184,1.16329,49,0,00123.csv,4.20768,0.384424,8.05059,1.15346e-09,00184.csv,0.252605,0.404827,0.114167,3.19682,880.534,282.563,0.681887
00125.csv,3.35707,2.47053,-0.945855,12.849,1.17084,50,0,00126.csv,4.20482,0.392642,9.0518,1.1706e-09,00184.csv,0.252605,0.404827,0.114167,3.19682,880.534,282.563,0.686313
00127.csv,3.36915,2.48006,-0.938912,11.4431,1.15578,51,0,00128.csv,4.20505,0.386249,9.43435,1.15208e-09,00184.csv,0.252605,0.404827,0.114167,3.19682,880.534,282.563,0.677484
00129.csv,3.35782,2.48231,-0.948386,12.8956,1.15898,52,0,00130.csv,4.20504,0.386306,8.9999,1.1523e-09,00184.csv,0.252605,0.404827,0.114167,3.19682,880.534,282.563,0.679363
00131.csv,3.36763,2.49991,-0.941405,11.5739,1.14089,53,0,00132.csv,4.20561,0.381563,9.18246,1.13802e-09,00184.csv,0.252605,0.404827,0.114167,3.19682,880.534,282.563,0.668758
00133.csv,3.44949,2.9947,-0.986706,10.5531,0.987045,54,0,00135.csv,4.20922,0.336039,8.08778,1.00514e-09,00184.csv,0.252605,0.404827,0.114167,3.19682,880.534,282.563,0.578577
00137.csv,3.37249,2.47469,-0.933117,11.9843,1.234,55,0,00139.csv,4.20734,0.410815,8.59767,1.22769e-09,00184.csv,0.252605,0.404827,0.114167,3.19682,880.534,282.563,0.723337
00141.csv,3.38214,2.4936,-0.947848,12.8363,1.23627,56,0,00142.csv,4.20398,0.412091,9.23196,1.22958e-09,00184.csv,0.252605,0.404827,0.114167,3.19682,880.534,282.563,0.724667
00143.csv,3.38382,2.4794,-0.956444,12.656,1.22582,57,0,00144.csv,4.20371,0.407634,9.28396,1.217e-09,00184.csv,0.252605,0.404827,0.114167,3.19682,880.534,282.563,0.718538
00145.csv,3.38603,2.49582,-0.952867,12.2096,1.20744,58,0,00146.csv,4.20362,0.403248,9.91396,1.20185e-09,00184.csv,0.252605,0.404827,0.114167,3.19682,880.534,282.563,0.707764
00147.csv,3.38414,2.4835,-0.952353,12.7801,1.20218,59,0,00148.csv,4.20364,0.401385,11.0089,1.19643e-09,00184.csv,0.252605,0.404827,0.114167,3.19682,880.534,282.563,0.704686
00149.csv,3.38278,2.49204,-0.951807,12.6581,1.19104,60,0,00151.csv,4.20772,0.394239,8.76923,1.17851e-09,00184.csv,0.252605,0.404827,0.114167,3.19682,880.534,282.563,0.698152
00153.csv,3.36454,2.48824,-0.951706,13.2494,1.19788,61,0,00155.csv,4.20777,0.401449,8.64548,1.20276e-09,00184.csv,0.252605,0.404827,0.114167,3.19682,880.534,282.563,0.70216
00155.csv,4.20777,3.71027,0.401449,8.64548,1.20298,62,0,00160.csv,4.20361,0.397705,10.0251,1.18681e-09,00184.csv,0.252605,0.404827,0.114167,3.19682,880.534,282.563,0.70515
00157.csv,3.37876,2.49819,-0.945772,13.1025,1.20466,63,0,00164.csv,4.2043,0.391157,11.2723,1.16799e-09,00184.csv,0.252605,0.404827,0.114167,3.19682,880.534,282.563,0.706138
00159.csv,3.38042,2.49822,-0.951768,13.0192,1.19431,64,0,00167.csv,4.21014,0.197465,7.9051,5.91141e-10,00184.csv,0.252605,0.404827,0.114167,3.19682,880.534,282.563,0.70007
00161.csv,3.37576,2.4716,-0.957775,12.6123,1.18363,65,0,00171.csv,4.20727,0.41113,8.85545,1.2287e-09,00184.csv,0.252605,0.404827,0.114167,3.19682,880.534,282.563,0.693809
00163.csv,3.37447,2.4973,-0.954187,12.9688,1.17403,66,0,00174.csv,4.20301,0.412247,10.0303,1.23064e-09,00184.csv,0.252605,0.404827,0.114167,3.19682,880.534,282.563,0.688184
00165.csv,3.62871,3.42706,-0.979204,9.05447,0.547498,67,0,00176.csv,4.20306,0.406966,10.5481,1.21503e-09,00184.csv,0.252605,0.404827,0.114167,3.19682,880.534,282.563,0.320927
00169.csv,3.38508,2.47586,-0.92697,13.1239,1.26127,68,0,00178.csv,4.20342,0.403694,10.1712,1.20432e-09,00184.csv,0.252605,0.404827,0.114167,3.19682,880.534,282.563,0.739322
00173.csv,3.39009,2.48209,-0.952668,13.1794,1.23891,69,0,00180.csv,4.20339,0.399384,11.1504,1.19226e-09,00184.csv,0.252605,0.404827,0.114167,3.19682,880.534,282.563,0.726214
00175.csv,3.39199,2.48455,-0.95914,12.7423,1.22558,70,0,00183.csv,4.20801,0.392774,8.68278,1.17623e-09,00184.csv,0.252605,0.404827,0.114167,3.19682,880.534,282.563,0.718399
00177.csv,3.38624,2.48172,-0.955428,13.2316,1.21331,71,0,00183.csv,4.20801,0.392774,8.68278,1.17623e-09,00184.csv,0.252605,0.404827,0.114167,3.19682,880.534,282.563,0.711205
00179.csv,3.38382,2.47568,-0.95772,12.8579,1.19863,72,0,00183.csv,4.20801,0.392774,8.68278,1.17623e-09,00184.csv,0.252605,0.404827,0.114167,3.19682,880.534,282.563,0.7026
00181.csv,3.38188,2.49921,-0.957312,12.6753,1.18852,73,0,00183.csv,4.20801,0.392774,8.68278,1.17623e-09,00184.csv,0.252605,0.404827,0.114167,3.19682,880.534,282.563,0.696677